XDAC V1.4 Datafile V1
"vfoil.010" created on 10/27/08 at 8:09:00 PM on X-23A2
Diffraction element= Si (311).  Ring energy= 2.80 GeV
E0= 5465.00
NUM_REGIONS= 3
SRB= -150 -20 30 8k
SRSS= 10 0.2 0.1k
SPP= 1 1 1
Settling time= 0.50


Offsets= 120.80 83.20 124.00
Gains= 8.00 9.00 9.00
V foil, ~40% N2 rest Ne in I00, I0, and It


--------------------------------------------------------------------------------
        Energy            I0            It            Ir
    5315.00005      768.2000     4097.8000      160.0000
    5324.99908      780.2000     4190.8000      164.0000
    5334.99867      794.2000     4296.8000      168.0000
    5345.00069      808.2000     4405.8000      172.0000
    5354.99886      822.2000     4510.8000      178.0000
    5365.00051      836.2000     4624.8000      183.0000
    5374.99936      852.2000     4745.8000      187.0000
    5385.00010      867.2000     4863.8000      192.0000
    5394.99917      881.2000     4976.8000      197.0000
    5405.00135      896.2000     5098.8000      203.0000
    5415.00031      912.2000     5223.8000      208.0000
    5425.00087      927.2000     5342.8000      213.0000
    5434.99948      942.2000     5464.8000      219.0000
    5445.00107      958.2000     5583.8000      224.0000
    5445.20099      958.2000     5586.8000      225.0000
    5445.40094      959.2000     5588.8000      224.0000
    5445.60090      959.2000     5590.8000      225.0000
    5445.80089      959.2000     5591.8000      224.0000
    5446.00090      960.2000     5596.8000      225.0000
    5446.20092      959.2000     5592.8000      225.0000
    5446.40097      960.2000     5597.8000      225.0000
    5446.60104      960.2000     5598.8000      225.0000
    5446.80112      961.2000     5599.8000      225.0000
    5447.00123      961.2000     5602.8000      225.0000
    5447.20136      960.2000     5604.8000      225.0000
    5447.39865      961.2000     5603.8000      225.0000
    5447.59881      961.2000     5605.8000      226.0000
    5447.79900      961.2000     5610.8000      226.0000
    5447.99921      962.2000     5612.8000      226.0000
    5448.19944      962.2000     5613.8000      226.0000
    5448.39969      962.2000     5616.8000      225.0000
    5448.59996      962.2000     5618.8000      226.0000
    5448.80025      963.2000     5617.8000      225.0000
    5449.00056      963.2000     5619.8000      226.0000
    5449.20089      964.2000     5623.8000      226.0000
    5449.40124      963.2000     5625.8000      226.0000
    5449.59875      964.2000     5630.8000      226.0000
    5449.79914      964.2000     5627.8000      226.0000
    5449.99955      964.2000     5628.8000      226.0000
    5450.19999      964.2000     5630.8000      226.0000
    5450.40044      964.2000     5633.8000      227.0000
    5450.60091      965.2000     5635.8000      226.0000
    5450.80140      966.2000     5635.8000      226.0000
    5450.99905      966.2000     5635.8000      226.0000
    5451.19959      966.2000     5639.8000      227.0000
    5451.40014      965.2000     5643.8000      227.0000
    5451.60071      966.2000     5643.8000      227.0000
    5451.80131      967.2000     5644.8000      227.0000
    5451.99906      967.2000     5646.8000      227.0000
    5452.19969      967.2000     5646.8000      227.0000
    5452.40035      967.2000     5650.8000      227.0000
    5452.60102      968.2000     5652.8000      228.0000
    5452.79885      968.2000     5653.8000      227.0000
    5452.99957      968.2000     5654.8000      227.0000
    5453.20030      969.2000     5657.8000      227.0000
    5453.40106      968.2000     5656.8000      227.0000
    5453.59897      969.2000     5658.8000      228.0000
    5453.79976      969.2000     5659.8000      228.0000
    5454.00058      970.2000     5665.8000      227.0000
    5454.20142      970.2000     5665.8000      228.0000
    5454.39941      970.2000     5665.8000      228.0000
    5454.60028      970.2000     5667.8000      228.0000
    5454.80118      971.2000     5667.8000      227.0000
    5454.99923      970.2000     5669.8000      228.0000
    5455.20017      972.2000     5670.8000      228.0000
    5455.40113      972.2000     5675.8000      229.0000
    5455.59924      972.2000     5674.8000      228.0000
    5455.80023      972.2000     5673.8000      228.0000
    5456.00125      972.2000     5675.8000      228.0000
    5456.19942      973.2000     5677.8000      229.0000
    5456.40048      973.2000     5676.8000      228.0000
    5456.59869      973.2000     5676.8000      229.0000
    5456.79979      973.2000     5681.8000      228.0000
    5457.00091      973.2000     5679.8000      229.0000
    5457.19918      974.2000     5678.8000      228.0000
    5457.40034      974.2000     5680.8000      229.0000
    5457.59865      975.2000     5681.8000      229.0000
    5457.79985      975.2000     5683.8000      228.0000
    5458.00107      975.2000     5682.8000      229.0000
    5458.19944      975.2000     5683.8000      229.0000
    5458.40070      976.2000     5680.8000      228.0000
    5458.59911      977.2000     5683.8000      229.0000
    5458.80041      976.2000     5680.8000      229.0000
    5458.99886      977.2000     5680.8000      229.0000
    5459.20020      978.2000     5682.8000      229.0000
    5459.39869      978.2000     5682.8000      229.0000
    5459.60007      977.2000     5676.8000      229.0000
    5459.79859      978.2000     5675.8000      229.0000
    5460.00002      978.2000     5674.8000      229.0000
    5460.19859      979.2000     5667.8000      228.0000
    5460.40005      979.2000     5667.8000      228.0000
    5460.59866      979.2000     5664.8000      229.0000
    5460.80016      980.2000     5658.8000      228.0000
    5460.99881      980.2000     5645.8000      228.0000
    5461.20035      980.2000     5638.8000      227.0000
    5461.39904      980.2000     5627.8000      226.0000
    5461.60062      980.2000     5617.8000      226.0000
    5461.79935      981.2000     5600.8000      226.0000
    5462.00097      981.2000     5580.8000      225.0000
    5462.19974      982.2000     5558.8000      224.0000
    5462.40141      982.2000     5524.8000      222.0000
    5462.60021      982.2000     5480.8000      221.0000
    5462.79904      982.2000     5414.8000      218.0000
    5463.00076      982.2000     5329.8000      215.0000
    5463.19963      983.2000     5212.8000      211.0000
    5463.40139      984.2000     5026.8000      202.0000
    5463.60030      984.2000     4776.8000      193.0000
    5463.79922      984.2000     4455.8000      180.0000
    5464.00105      984.2000     4227.8000      171.0000
    5464.20002      984.2000     4128.8000      167.0000
    5464.39900      985.2000     4155.8000      168.0000
    5464.60089      985.2000     4207.8000      171.0000
    5464.79991      985.2000     4276.8000      173.0000
    5464.99896      986.2000     4342.8000      176.0000
    5465.20091      986.2000     4401.8000      178.0000
    5465.39999      985.2000     4424.8000      179.0000
    5465.59909      987.2000     4428.8000      179.0000
    5465.80110      986.2000     4415.8000      179.0000
    5466.00024      987.2000     4389.8000      178.0000
    5466.19941      987.2000     4349.8000      177.0000
    5466.39859      988.2000     4290.8000      174.0000
    5466.60068      987.2000     4232.8000      171.0000
    5466.79990      988.2000     4187.8000      170.0000
    5466.99915      989.2000     4143.8000      167.0000
    5467.20130      989.2000     4099.8000      166.0000
    5467.40058      989.2000     4054.8000      164.0000
    5467.59988      990.2000     3993.8000      162.0000
    5467.79920      990.2000     3944.8000      160.0000
    5468.00143      990.2000     3898.8000      158.0000
    5468.20079      991.2000     3859.8000      157.0000
    5468.40018      991.2000     3830.8000      156.0000
    5468.59958      992.2000     3800.8000      154.0000
    5468.79900      991.2000     3777.8000      153.0000
    5469.00133      992.2000     3763.8000      153.0000
    5469.20079      992.2000     3756.8000      152.0000
    5469.40027      992.2000     3748.8000      152.0000
    5469.59977      992.2000     3739.8000      152.0000
    5469.79929      993.2000     3731.8000      151.0000
    5469.99883      993.2000     3728.8000      151.0000
    5470.20129      993.2000     3724.8000      151.0000
    5470.40087      994.2000     3719.8000      151.0000
    5470.60046      994.2000     3712.8000      151.0000
    5470.80008      994.2000     3705.8000      150.0000
    5470.99972      994.2000     3686.8000      150.0000
    5471.19938      995.2000     3663.8000      149.0000
    5471.39906      995.2000     3631.8000      148.0000
    5471.59876      995.2000     3592.8000      146.0000
    5471.80137      996.2000     3545.8000      144.0000
    5472.00111      996.2000     3485.8000      142.0000
    5472.20087      997.2000     3422.8000      139.0000
    5472.40065      997.2000     3369.8000      138.0000
    5472.60045      997.2000     3316.8000      135.0000
    5472.80027      998.2000     3262.8000      133.0000
    5473.00010      998.2000     3200.8000      130.0000
    5473.19996      998.2000     3138.8000      128.0000
    5473.39984      998.2000     3086.8000      126.0000
    5473.59973      999.2000     3037.8000      124.0000
    5473.79965     1000.2000     3000.8000      122.0000
    5473.99959      999.2000     2968.8000      121.0000
    5474.19954     1000.2000     2936.8000      120.0000
    5474.39952     1000.2000     2897.8000      119.0000
    5474.59952     1000.2000     2862.8000      117.0000
    5474.79953     1000.2000     2832.8000      116.0000
    5474.99957     1001.2000     2805.8000      115.0000
    5475.19962     1001.2000     2774.8000      114.0000
    5475.39970     1002.2000     2740.8000      112.0000
    5475.59979     1002.2000     2706.8000      110.0000
    5475.79991     1002.2000     2678.8000      110.0000
    5476.00004     1002.2000     2657.8000      109.0000
    5476.20020     1003.2000     2642.8000      108.0000
    5476.40037     1002.2000     2621.8000      107.0000
    5476.60057     1003.2000     2595.8000      106.0000
    5476.80078     1004.2000     2569.8000      105.0000
    5477.00101     1004.2000     2544.8000      104.0000
    5477.20127     1004.2000     2518.8000      104.0000
    5477.39864     1005.2000     2496.8000      102.0000
    5477.59893     1004.2000     2485.8000      102.0000
    5477.79924     1004.2000     2461.8000      102.0000
    5477.99958     1005.2000     2439.8000      100.0000
    5478.19993     1005.2000     2411.8000       99.0000
    5478.40030     1006.2000     2392.8000       99.0000
    5478.60069     1006.2000     2368.8000       97.0000
    5478.80110     1006.2000     2347.8000       97.0000
    5478.99863     1007.2000     2330.8000       96.0000
    5479.19908     1007.2000     2307.8000       95.0000
    5479.39955     1007.2000     2285.8000       94.0000
    5479.60004     1007.2000     2270.8000       93.0000
    5479.80055     1007.2000     2260.8000       93.0000
    5480.00108     1008.2000     2241.8000       92.0000
    5480.19873     1008.2000     2223.8000       91.0000
    5480.39930     1008.2000     2209.8000       91.0000
    5480.59989     1009.2000     2194.8000       90.0000
    5480.80050     1009.2000     2179.8000       90.0000
    5481.00112     1010.2000     2170.8000       90.0000
    5481.19887     1010.2000     2157.8000       89.0000
    5481.39953     1010.2000     2139.8000       88.0000
    5481.60022     1010.2000     2119.8000       88.0000
    5481.80093     1011.2000     2104.8000       87.0000
    5481.99875     1011.2000     2097.8000       87.0000
    5482.19950     1012.2000     2094.8000       86.0000
    5482.40026     1012.2000     2091.8000       86.0000
    5482.60105     1012.2000     2094.8000       87.0000
    5482.79895     1013.2000     2101.8000       86.0000
    5482.99977     1013.2000     2112.8000       87.0000
    5483.20062     1013.2000     2126.8000       88.0000
    5483.39857     1013.2000     2141.8000       88.0000
    5483.59946     1014.2000     2161.8000       90.0000
    5483.80036     1014.2000     2185.8000       90.0000
    5484.00129     1014.2000     2214.8000       91.0000
    5484.19932     1015.2000     2234.8000       92.0000
    5484.40029     1014.2000     2256.8000       93.0000
    5484.60127     1015.2000     2279.8000       94.0000
    5484.79936     1015.2000     2302.8000       95.0000
    5485.00039     1016.2000     2325.8000       96.0000
    5485.20143     1016.2000     2349.8000       97.0000
    5485.39958     1016.2000     2366.8000       98.0000
    5485.60066     1016.2000     2379.8000       98.0000
    5485.79885     1017.2000     2396.8000       99.0000
    5485.99997     1017.2000     2411.8000       99.0000
    5486.20111     1018.2000     2425.8000      100.0000
    5486.39936     1018.2000     2434.8000      100.0000
    5486.60054     1019.2000     2441.8000      101.0000
    5486.79883     1018.2000     2448.8000      100.0000
    5487.00005     1019.2000     2450.8000      101.0000
    5487.20129     1019.2000     2452.8000      101.0000
    5487.39963     1019.2000     2451.8000      101.0000
    5487.60091     1019.2000     2447.8000      101.0000
    5487.79929     1020.2000     2444.8000      100.0000
    5488.00061     1020.2000     2441.8000      101.0000
    5488.19903     1020.2000     2433.8000      101.0000
    5488.40039     1021.2000     2423.8000      100.0000
    5488.59885     1022.2000     2416.8000      100.0000
    5488.80025     1021.2000     2406.8000      100.0000
    5488.99875     1022.2000     2395.8000       99.0000
    5489.20019     1022.2000     2385.8000       99.0000
    5489.39872     1022.2000     2373.8000       97.0000
    5489.60020     1023.2000     2363.8000       97.0000
    5489.79878     1023.2000     2354.8000       97.0000
    5490.00029     1023.2000     2342.8000       97.0000
    5490.19891     1024.2000     2332.8000       97.0000
    5490.40046     1024.2000     2324.8000       96.0000
    5490.59912     1026.2000     2316.8000       96.0000
    5490.80071     1025.2000     2310.8000       96.0000
    5490.99940     1022.2000     2296.8000       94.0000
    5491.20104     1008.2000     2259.8000       93.0000
    5491.39977      999.2000     2236.8000       93.0000
    5491.60144      996.2000     2227.8000       92.0000
    5491.80021      996.2000     2225.8000       92.0000
    5491.99900     1006.2000     2247.8000       92.0000
    5492.20074     1016.2000     2272.8000       93.0000
    5492.39956     1023.2000     2289.8000       94.0000
    5492.60134     1023.2000     2296.8000       95.0000
    5492.80020     1024.2000     2301.8000       95.0000
    5492.99909     1025.2000     2307.8000       95.0000
    5493.20092     1025.2000     2310.8000       95.0000
    5493.39985     1025.2000     2318.8000       96.0000
    5493.59879     1026.2000     2325.8000       96.0000
    5493.80068     1026.2000     2331.8000       96.0000
    5493.99966     1026.2000     2339.8000       96.0000
    5494.19867     1027.2000     2345.8000       97.0000
    5494.40061     1027.2000     2353.8000       97.0000
    5494.59966     1028.2000     2360.8000       97.0000
    5494.79872     1029.2000     2366.8000       98.0000
    5497.17722     1032.2000     2351.8000       97.0000
    5499.42938     1036.2000     2297.8000       95.0000
    5501.75742     1031.2000     2247.8000       93.0000
    5504.16161     1043.2000     2259.8000       93.0000
    5506.64219     1047.2000     2242.8000       93.0000
    5509.20238     1052.2000     2215.8000       92.0000
    5511.83361     1056.2000     2245.8000       93.0000
    5514.54500     1060.2000     2290.8000       95.0000
    5517.33094     1064.2000     2340.8000       97.0000
    5520.19170     1069.2000     2431.8000      101.0000
    5523.13055     1074.2000     2533.8000      105.0000
    5526.14483     1079.2000     2613.8000      108.0000
    5529.23484     1083.2000     2668.8000      111.0000
    5532.40387     1089.2000     2655.8000      111.0000
    5535.64629     1094.2000     2572.8000      107.0000
    5538.96541     1099.2000     2500.8000      104.0000
    5542.36156     1105.2000     2572.8000      108.0000
    5545.83209     1111.2000     2703.8000      112.0000
    5549.38032     1117.2000     2833.8000      118.0000
    5553.00363     1122.2000     2843.8000      118.0000
    5556.70535     1129.2000     2697.8000      112.0000
    5560.48286     1136.2000     2536.8000      106.0000
    5564.33349     1131.2000     2438.8000      102.0000
    5568.26364     1148.2000     2554.8000      107.0000
    5572.26765     1156.2000     2746.8000      115.0000
    5576.34892     1139.2000     2862.8000      120.0000
    5580.50785     1168.2000     2986.8000      125.0000
    5584.74177     1175.2000     2994.8000      126.0000
    5589.05107     1183.2000     3033.8000      127.0000
    5593.43614     1191.2000     3116.8000      131.0000
    5597.90046     1196.2000     3155.8000      132.0000
    5602.43829     1204.2000     3161.8000      133.0000
    5607.05310     1211.2000     3146.8000      133.0000
    5611.74223     1218.2000     3119.8000      131.0000
    5616.51228     1227.2000     3114.8000      131.0000
    5621.35437     1235.2000     3047.8000      129.0000
    5626.27513     1244.2000     3047.8000      129.0000
    5631.26876     1252.2000     3163.8000      134.0000
    5636.34192     1261.2000     3305.8000      140.0000
    5641.48880     1270.2000     3409.8000      145.0000
    5646.71295     1279.2000     3472.8000      148.0000
    5652.01482     1287.2000     3536.8000      150.0000
    5657.39170     1298.2000     3601.8000      153.0000
    5662.84403     1308.2000     3676.8000      157.0000
    5668.37224     1317.2000     3769.8000      160.0000
    5673.97995     1326.2000     3797.8000      162.0000
    5679.66127     1336.2000     3777.8000      162.0000
    5685.41663     1346.2000     3744.8000      160.0000
    5691.25286     1355.2000     3716.8000      159.0000
    5697.16082     1366.2000     3728.8000      160.0000
    5703.14737     1377.2000     3834.8000      165.0000
    5709.20975     1388.2000     3989.8000      171.0000
