XDAC V1.4 Datafile V1
"cu_kmdg1.020" created on 6/22/2012 at 5:46:29 AM on X-23A2
Diffraction element= Si (311).  Ring energy= 2.80 GeV
E0= 8979.00
NUM_REGIONS= 4
SRB= -200 -30 30 60 13k
SRSS= 10 0.5 0.05k 0.05k
SPP= 1 1 1 0.25k
Settling time= 0.20


Offsets= 115.00 54.25 0.00 0.00 0.00 0.00 10.50 5.25 5.25 5.25 12.25 10.75 5.25 10.50 98.00 0.00
Gains= 8.00 9.00 0.00 0.00 0.00 0.00 0.00 8.00 8.00 8.00 0.00 8.00 8.00 8.00 10.00 1.00
Green glass KMDG1


--------------------------------------------------------------------------------
        Energy            I0            It         Ifch1         Ifch2         Ifch3         Ifch4       Ifslow1       Ifslow2       Ifslow3       Ifslow4       Iffast1       Iffast2       Iffast3       Iffast4          Iref       IntTime
    8779.00083     4817.0000        2.7500      566.0000      609.0000      373.0000      348.0000    79438.5000    72299.7500    56376.7500    63449.7500    82356.7500    74659.2500    57733.7500    65286.5000        1.0000        1.0000
    8788.99736     4685.0000        2.7500      612.0000      579.0000      353.0000      364.0000    77254.5000    70486.7500    54455.7500    62071.7500    80088.7500    72684.2500    55791.7500    63735.5000        1.0000        1.0000
    8799.00154     4833.0000        2.7500      585.0000      615.0000      359.0000      392.0000    79777.5000    72790.7500    56879.7500    63414.7500    82745.7500    75242.2500    58331.7500    65187.5000        2.0000        1.0000
    8809.00224     4807.0000        2.7500      559.0000      638.0000      398.0000      400.0000    78998.5000    72739.7500    56774.7500    63608.7500    81958.7500    75188.2500    58161.7500    65387.5000        1.0000        1.0000
    8818.99942     4810.0000        3.7500      617.0000      609.0000      382.0000      401.0000    79380.5000    72756.7500    57002.7500    63701.7500    82458.7500    75201.2500    58460.7500    65421.5000        1.0000        1.0000
    8828.99859     4690.0000        3.7500      544.0000      567.0000      454.0000      375.0000    77932.5000    71810.7500    55899.7500    62458.7500    80817.7500    74125.2500    57356.7500    64085.5000        2.0000        1.0000
    8838.99973     4793.0000        2.7500      595.0000      588.0000      449.0000      403.0000    79630.5000    72973.7500    56878.7500    63498.7500    82637.7500    75379.2500    58337.7500    65328.5000        2.0000        1.0000
    8848.99723     4802.0000        3.7500      599.0000      589.0000      403.0000      412.0000    79616.5000    72258.7500    56668.7500    64204.7500    82576.7500    74563.2500    58077.7500    65970.5000        1.0000        1.0000
    8859.00221     4761.0000        2.7500      579.0000      605.0000      415.0000      445.0000    79650.5000    71812.7500    56952.7500    63144.7500    82541.7500    74223.2500    58366.7500    64983.5000        1.0000        1.0000
    8868.99790     4781.0000        2.7500      628.0000      607.0000      453.0000      410.0000    79913.5000    72721.7500    57045.7500    63681.7500    82986.7500    75033.2500    58426.7500    65511.5000        1.0000        1.0000
    8879.00099     4766.0000        2.7500      617.0000      608.0000      409.0000      443.0000    79495.5000    72628.7500    57163.7500    63690.7500    82329.7500    74987.2500    58624.7500    65367.5000        1.0000        1.0000
    8889.00031     4764.0000        2.7500      672.0000      651.0000      416.0000      395.0000    79429.5000    73133.7500    56816.7500    64040.7500    82416.7500    75536.2500    58286.7500    65802.5000        1.0000        1.0000
    8899.00138     4661.0000        3.7500      646.0000      578.0000      452.0000      486.0000    78207.5000    71132.7500    55678.7500    62588.7500    81182.7500    73411.2500    57089.7500    64380.5000        2.0000        1.0000
    8908.99860     4748.0000        2.7500      691.0000      662.0000      461.0000      486.0000    79581.5000    72671.7500    56544.7500    63180.7500    82637.7500    74983.2500    57966.7500    64926.5000        1.0000        1.0000
    8918.99751     4741.0000        3.7500      746.0000      695.0000      497.0000      527.0000    79709.5000    72237.7500    56634.7500    63850.7500    82705.7500    74656.2500    58083.7500    65609.5000        2.0000        1.0000
    8928.99809     4731.0000        2.7500      766.0000      746.0000      545.0000      588.0000    79694.5000    72662.7500    56936.7500    63783.7500    82669.7500    75173.2500    58342.7500    65556.5000        1.0000        1.0000
    8939.00030     4738.0000        3.7500      868.0000      804.0000      577.0000      647.0000    80011.5000    72623.7500    56895.7500    64002.7500    82996.7500    75050.2500    58375.7500    65722.5000        1.0000        1.0000
    8948.99851     4737.0000        3.7500     1009.0000      941.0000      652.0000      748.0000    79869.5000    73429.7500    56872.7500    63951.7500    82936.7500    75835.2500    58400.7500    65746.5000        1.0000        1.0000
    8949.49805     4732.0000        3.7500     1002.0000     1031.0000      662.0000      780.0000    79821.5000    73524.7500    56925.7500    64329.7500    82739.7500    75878.2500    58404.7500    66183.5000        1.0000        1.0000
    8949.99760     4727.0000        2.7500      994.0000      889.0000      696.0000      739.0000    80107.5000    73271.7500    56901.7500    63796.7500    83087.7500    75675.2500    58282.7500    65553.5000        1.0000        1.0000
    8950.50279     4727.0000        2.7500     1020.0000      970.0000      688.0000      748.0000    80004.5000    73095.7500    56940.7500    63621.7500    83004.7500    75485.2500    58353.7500    65447.5000        2.0000        1.0000
    8951.00238     4723.0000        3.7500     1050.0000      926.0000      691.0000      767.0000    80150.5000    73005.7500    56791.7500    63774.7500    83136.7500    75539.2500    58183.7500    65620.5000        1.0000        1.0000
    8951.50199     4721.0000        2.7500      994.0000      942.0000      701.0000      794.0000    79885.5000    72934.7500    56958.7500    63711.7500    82896.7500    75323.2500    58399.7500    65492.5000        1.0000        1.0000
    8952.00162     4734.0000        2.7500     1019.0000     1019.0000      661.0000      829.0000    80385.5000    73339.7500    57005.7500    63861.7500    83483.7500    75757.2500    58495.7500    65764.5000        1.0000        1.0000
    8952.50127     4748.0000        3.7500     1028.0000      922.0000      659.0000      797.0000    80466.5000    73330.7500    57374.7500    64248.7500    83570.7500    75761.2500    58824.7500    66070.5000        1.0000        1.0000
    8953.00093     4731.0000        2.7500     1059.0000     1006.0000      654.0000      779.0000    79729.5000    73029.7500    56739.7500    63582.7500    82811.7500    75386.2500    58211.7500    65410.5000        1.0000        1.0000
    8953.50061     4742.0000        2.7500     1090.0000      959.0000      684.0000      834.0000    80475.5000    73472.7500    57436.7500    64250.7500    83561.7500    75903.2500    58835.7500    66037.5000        1.0000        1.0000
    8954.00031     4729.0000        2.7500     1065.0000      960.0000      704.0000      893.0000    80092.5000    73346.7500    57206.7500    63846.7500    83189.7500    75858.2500    58602.7500    65651.5000        2.0000        1.0000
    8954.50003     4732.0000        3.7500     1099.0000      992.0000      755.0000      858.0000    80054.5000    73287.7500    57323.7500    63599.7500    83225.7500    75676.2500    58750.7500    65480.5000        2.0000        1.0000
    8954.99976     4725.0000        2.7500     1085.0000      958.0000      712.0000      874.0000    80409.5000    73177.7500    56899.7500    63768.7500    83310.7500    75676.2500    58337.7500    65581.5000        1.0000        1.0000
    8955.49952     4741.0000        3.7500     1069.0000     1051.0000      739.0000      841.0000    79933.5000    73873.7500    57621.7500    63981.7500    82877.7500    76391.2500    59120.7500    65711.5000        2.0000        1.0000
    8955.99929     4727.0000        2.7500     1049.0000     1025.0000      744.0000      780.0000    80131.5000    72989.7500    57143.7500    63661.7500    83120.7500    75441.2500    58634.7500    65322.5000        1.0000        1.0000
    8956.49907     4739.0000        2.7500     1165.0000     1090.0000      776.0000      860.0000    80126.5000    73639.7500    57343.7500    63894.7500    83198.7500    76198.2500    58835.7500    65695.5000        1.0000        1.0000
    8956.99888     4727.0000        2.7500     1080.0000     1071.0000      747.0000      871.0000    80246.5000    73130.7500    56860.7500    63901.7500    83322.7500    75670.2500    58315.7500    65674.5000        1.0000        1.0000
    8957.49871     4715.0000        2.7500     1145.0000     1076.0000      761.0000      888.0000    80271.5000    73403.7500    56783.7500    63863.7500    83293.7500    75980.2500    58299.7500    65650.5000        1.0000        1.0000
    8957.99855     4733.0000        2.7500     1183.0000     1047.0000      810.0000      878.0000    80253.5000    73522.7500    57114.7500    63986.7500    83370.7500    75972.2500    58540.7500    65856.5000        1.0000        1.0000
    8958.49841     4725.0000        2.7500     1149.0000     1016.0000      780.0000      943.0000    80010.5000    73381.7500    57229.7500    64205.7500    83008.7500    75802.2500    58688.7500    66008.5000        2.0000        1.0000
    8958.99829     4737.0000        3.7500     1142.0000     1059.0000      797.0000      927.0000    80014.5000    73427.7500    57143.7500    64040.7500    83145.7500    75858.2500    58600.7500    65854.5000        2.0000        1.0000
    8959.49818     4733.0000        2.7500     1198.0000     1166.0000      831.0000      928.0000    80258.5000    73000.7500    57271.7500    63962.7500    83271.7500    75501.2500    58683.7500    65695.5000        2.0000        1.0000
    8959.99810     4720.0000        3.7500     1220.0000     1116.0000      857.0000      858.0000    80833.5000    73468.7500    57103.7500    64199.7500    83843.7500    75918.2500    58632.7500    66002.5000        2.0000        1.0000
    8960.49803     4730.0000        3.7500     1327.0000     1136.0000      850.0000      956.0000    80398.5000    73301.7500    57458.7500    64247.7500    83531.7500    75700.2500    58787.7500    66071.5000        1.0000        1.0000
    8960.99798     4733.0000        2.7500     1259.0000     1166.0000      825.0000      977.0000    80339.5000    74076.7500    57049.7500    64479.7500    83325.7500    76526.2500    58584.7500    66321.5000        1.0000        1.0000
    8961.49795     4739.0000        3.7500     1306.0000     1170.0000      856.0000      987.0000    80773.5000    73695.7500    57722.7500    64159.7500    83871.7500    76119.2500    59206.7500    66055.5000        2.0000        1.0000
    8961.99793     4719.0000        2.7500     1305.0000     1241.0000      907.0000      975.0000    79778.5000    73098.7500    57095.7500    64319.7500    82828.7500    75630.2500    58482.7500    66105.5000        1.0000        1.0000
    8962.49793     4718.0000        3.7500     1369.0000     1210.0000      954.0000     1047.0000    80789.5000    73381.7500    57207.7500    64279.7500    83844.7500    75783.2500    58720.7500    66126.5000        1.0000        1.0000
    8962.99796     4727.0000        2.7500     1320.0000     1216.0000      871.0000     1056.0000    80598.5000    73783.7500    57082.7500    64173.7500    83705.7500    76245.2500    58503.7500    65992.5000        1.0000        1.0000
    8963.49799     4728.0000        2.7500     1397.0000     1260.0000      881.0000     1003.0000    80446.5000    73482.7500    56946.7500    64440.7500    83506.7500    75939.2500    58406.7500    66319.5000        1.0000        1.0000
    8963.99805     4733.0000        2.7500     1464.0000     1276.0000      929.0000     1035.0000    80651.5000    73454.7500    57223.7500    64154.7500    83773.7500    75913.2500    58649.7500    65957.5000        1.0000        1.0000
    8964.49813     4728.0000        2.7500     1446.0000     1271.0000      921.0000     1131.0000    80746.5000    73295.7500    57436.7500    64519.7500    83761.7500    75700.2500    58958.7500    66349.5000        1.0000        1.0000
    8964.99822     4726.0000        3.7500     1523.0000     1275.0000      972.0000     1134.0000    80807.5000    73763.7500    57382.7500    64658.7500    83868.7500    76296.2500    58812.7500    66491.5000        1.0000        1.0000
    8965.49833     4726.0000        2.7500     1467.0000     1300.0000     1015.0000     1121.0000    80572.5000    73744.7500    57461.7500    64316.7500    83561.7500    76191.2500    58875.7500    66208.5000        1.0000        1.0000
    8965.99846     4722.0000        3.7500     1526.0000     1395.0000     1011.0000     1130.0000    80004.5000    74216.7500    57123.7500    64367.7500    82937.7500    76662.2500    58511.7500    66085.5000        1.0000        1.0000
    8966.49860     4732.0000        2.7500     1552.0000     1470.0000     1009.0000     1186.0000    80559.5000    73934.7500    57154.7500    64393.7500    83536.7500    76431.2500    58567.7500    66292.5000        1.0000        1.0000
    8966.99877     4734.0000        2.7500     1551.0000     1468.0000     1001.0000     1243.0000    81046.5000    73946.7500    57243.7500    64901.7500    84166.7500    76390.2500    58606.7500    66876.5000        1.0000        1.0000
    8967.49895     4730.0000        3.7500     1624.0000     1425.0000     1098.0000     1252.0000    81176.5000    74330.7500    57378.7500    64471.7500    84302.7500    76871.2500    58876.7500    66290.5000        1.0000        1.0000
    8967.99915     4723.0000        3.7500     1626.0000     1468.0000     1091.0000     1304.0000    80683.5000    73801.7500    57249.7500    64336.7500    83745.7500    76345.2500    58724.7500    66148.5000        1.0000        1.0000
    8968.49937     4716.0000        3.7500     1682.0000     1457.0000     1076.0000     1337.0000    80670.5000    73668.7500    57938.7500    64608.7500    83713.7500    76126.2500    59431.7500    66382.5000        1.0000        1.0000
    8968.99960     4722.0000        3.7500     1715.0000     1529.0000     1143.0000     1336.0000    80798.5000    74064.7500    57264.7500    64371.7500    83845.7500    76603.2500    58731.7500    66191.5000        2.0000        1.0000
    8969.49985     4729.0000        3.7500     1788.0000     1604.0000     1151.0000     1349.0000    81091.5000    74222.7500    57435.7500    64202.7500    84170.7500    76815.2500    58966.7500    66033.5000        1.0000        1.0000
    8970.00012     4728.0000        3.7500     1843.0000     1688.0000     1244.0000     1442.0000    81448.5000    74791.7500    57796.7500    64822.7500    84639.7500    77268.2500    59340.7500    66625.5000        2.0000        1.0000
    8970.50041     4717.0000        3.7500     1877.0000     1674.0000     1236.0000     1516.0000    80995.5000    73779.7500    57637.7500    64705.7500    84136.7500    76277.2500    59049.7500    66546.5000        1.0000        1.0000
    8971.00072     4717.0000        2.7500     1869.0000     1703.0000     1212.0000     1464.0000    80662.5000    73653.7500    57660.7500    64425.7500    83694.7500    76138.2500    59117.7500    66271.5000        2.0000        1.0000
    8971.50104     4716.0000        2.7500     1918.0000     1755.0000     1281.0000     1575.0000    80947.5000    73679.7500    57224.7500    64738.7500    84056.7500    76178.2500    58672.7500    66514.5000        1.0000        1.0000
    8972.00139     4726.0000        3.7500     2068.0000     1783.0000     1331.0000     1679.0000    81066.5000    74254.7500    57401.7500    65213.7500    84179.7500    76816.2500    58929.7500    67071.5000        1.0000        1.0000
    8972.50175     4720.0000        2.7500     2113.0000     1755.0000     1487.0000     1699.0000    81287.5000    74479.7500    57913.7500    65182.7500    84374.7500    76896.2500    59329.7500    67057.5000        1.0000        1.0000
    8973.00212     4715.0000        2.7500     2134.0000     1962.0000     1523.0000     1691.0000    81274.5000    74030.7500    57580.7500    64876.7500    84408.7500    76559.2500    59102.7500    66822.5000        1.0000        1.0000
    8973.50252     4720.0000        2.7500     2267.0000     1961.0000     1528.0000     1835.0000    81091.5000    74269.7500    58023.7500    65258.7500    84202.7500    76799.2500    59453.7500    67161.5000        2.0000        1.0000
    8973.99731     4725.0000        2.7500     2379.0000     2136.0000     1647.0000     1906.0000    81977.5000    75094.7500    58001.7500    65128.7500    85154.7500    77697.2500    59561.7500    66893.5000        2.0000        1.0000
    8974.49774     4707.0000        3.7500     2529.0000     2215.0000     1648.0000     1922.0000    81409.5000    74249.7500    57693.7500    65019.7500    84524.7500    76793.2500    59109.7500    66828.5000        2.0000        1.0000
    8974.99819     4726.0000        2.7500     2656.0000     2361.0000     1754.0000     2119.0000    82110.5000    74953.7500    58563.7500    65578.7500    85362.7500    77485.2500    60130.7500    67503.5000        1.0000        1.0000
    8975.49866     4722.0000        3.7500     2717.0000     2458.0000     1894.0000     2205.0000    82312.5000    74957.7500    58462.7500    65603.7500    85579.7500    77484.2500    59963.7500    67518.5000        1.0000        1.0000
    8975.99914     4716.0000        2.7500     2984.0000     2599.0000     1934.0000     2370.0000    81909.5000    75201.7500    58155.7500    65792.7500    85135.7500    77726.2500    59669.7500    67670.5000        1.0000        1.0000
    8976.49965     4719.0000        3.7500     3129.0000     2749.0000     2133.0000     2582.0000    82014.5000    75382.7500    58573.7500    66096.7500    85221.7500    77940.2500    60078.7500    68048.5000        1.0000        1.0000
    8977.00017     4708.0000        2.7500     3473.0000     2893.0000     2278.0000     2665.0000    83151.5000    75662.7500    58856.7500    65977.7500    86381.7500    78316.2500    60312.7500    67925.5000        1.0000        1.0000
    8977.50070     4715.0000        3.7500     3750.0000     3253.0000     2564.0000     2937.0000    83342.5000    75983.7500    58690.7500    65895.7500    86593.7500    78699.2500    60218.7500    67818.5000        1.0000        1.0000
    8978.00126     4726.0000        2.7500     4280.0000     3822.0000     2881.0000     3402.0000    83799.5000    76625.7500    59500.7500    67014.7500    87264.7500    79393.2500    61117.7500    68967.5000        1.0000        1.0000
    8978.50183     4711.0000        2.7500     4839.0000     4180.0000     3226.0000     3844.0000    84073.5000    76726.7500    59827.7500    67148.7500    87433.7500    79399.2500    61343.7500    69046.5000        1.0000        1.0000
    8979.00242     4713.0000        3.7500     5023.0000     4423.0000     3371.0000     4167.0000    84466.5000    77224.7500    59924.7500    68222.7500    87845.7500    79959.2500    61551.7500    70246.5000        1.0000        1.0000
    8979.49741     4706.0000        2.7500     5373.0000     4591.0000     3567.0000     4170.0000    84692.5000    77175.7500    59989.7500    67358.7500    88215.7500    79825.2500    61620.7500    69329.5000        2.0000        1.0000
    8979.99803     4710.0000        3.7500     5751.0000     5111.0000     3849.0000     4780.0000    85356.5000    77851.7500    60857.7500    68366.7500    88900.7500    80501.2500    62500.7500    70477.5000        1.0000        1.0000
    8980.49868     4719.0000        2.7500     6981.0000     6028.0000     4621.0000     5749.0000    86445.5000    78148.7500    61846.7500    69035.7500    89999.7500    81076.2500    63555.7500    71131.5000        1.0000        1.0000
    8980.99934     4712.0000        2.7500     8406.0000     7390.0000     5633.0000     6917.0000    88139.5000    80520.7500    62457.7500    70759.7500    91735.7500    83356.2500    64194.7500    73062.5000        2.0000        1.0000
    8981.50002     4707.0000        3.7500    10899.0000     9602.0000     7194.0000     8714.0000    91326.5000    82613.7500    63985.7500    72462.7500    95284.7500    85752.2500    65846.7500    74921.5000        1.0000        1.0000
    8982.00072     4724.0000        2.7500    14984.0000    12926.0000    10159.0000    12321.0000    95733.5000    87216.7500    67888.7500    77175.7500   100144.7500    90809.2500    69969.7500    79879.5000        1.0000        1.0000
    8982.50144     4707.0000        3.7500    21061.0000    18407.0000    14140.0000    17194.0000   102009.5000    92997.7500    72294.7500    82685.7500   107217.7500    97230.2500    74590.7500    85920.5000        2.0000        1.0000
    8983.00217     4705.0000        2.7500    28515.0000    24610.0000    19418.0000    23067.0000   110619.5000    99447.7500    78368.7500    89369.7500   116832.7500   104310.2500    81206.7500    93171.5000        1.0000        1.0000
    8983.49729     4701.0000        3.7500    39830.0000    34575.0000    27251.0000    32620.0000   122997.5000   110499.7500    87639.7500   100383.7500   131024.7500   116697.2500    91246.7500   105386.5000        1.0000        1.0000
    8983.99806     4711.0000        2.7500    47542.0000    40949.0000    32189.0000    38698.0000   131536.5000   118626.7500    93292.7500   107433.7500   140645.7500   125607.2500    97295.7500   113346.5000        2.0000        1.0000
    8984.49885     4699.0000        2.7500    46852.0000    40800.0000    31817.0000    38271.0000   130950.5000   117243.7500    93053.7500   107112.7500   139966.7500   124324.2500    97145.7500   112968.5000        1.0000        1.0000
    8984.99965     4682.0000        2.7500    41236.0000    35884.0000    28128.0000    34056.0000   124080.5000   112132.7500    88329.7500   101938.7500   132171.7500   118622.2500    91958.7500   107000.5000        1.0000        1.0000
    8985.50047     4703.0000        3.7500    38458.0000    33469.0000    26169.0000    31898.0000   121479.5000   109773.7500    86173.7500    99526.7500   129113.7500   115731.2500    89730.7500   104306.5000        1.0000        1.0000
    8986.00131     4701.0000        2.7500    37866.0000    32883.0000    25806.0000    30720.0000   120880.5000   108692.7500    85935.7500    98366.7500   128189.7500   114705.2500    89273.7500   103162.5000        1.0000        1.0000
    8986.50217     4701.0000        2.7500    38679.0000    33676.0000    26157.0000    31969.0000   121749.5000   109493.7500    86314.7500    99694.7500   129422.7500   115471.2500    89813.7500   104577.5000        1.0000        1.0000
    8986.99742     4705.0000        3.7500    40740.0000    35191.0000    27514.0000    33041.0000   123718.5000   111153.7500    87490.7500   100972.7500   131624.7500   117289.2500    90959.7500   106151.5000        1.0000        1.0000
    8987.49831     4707.0000        2.7500    41915.0000    36684.0000    28500.0000    34677.0000   125322.5000   113578.7500    88680.7500   102700.7500   133485.7500   120038.2500    92332.7500   108014.5000        1.0000        1.0000
    8987.99922     4696.0000        2.7500    43192.0000    37422.0000    29582.0000    35486.0000   126489.5000   113912.7500    89900.7500   103476.7500   134668.7500   120367.2500    93674.7500   108693.5000        1.0000        1.0000
    8988.50015     4696.0000        2.7500    44569.0000    39112.0000    30739.0000    36850.0000   128702.5000   115737.7500    91612.7500   105016.7500   137441.7500   122438.2500    95525.7500   110522.5000        1.0000        1.0000
    8989.00110     4702.0000        2.7500    46039.0000    40038.0000    31397.0000    37929.0000   130234.5000   116786.7500    91869.7500   106375.7500   139031.7500   123779.2500    95827.7500   112190.5000        1.0000        1.0000
    8989.50206     4689.0000        2.7500    47415.0000    41490.0000    32496.0000    39325.0000   131208.5000   118295.7500    93684.7500   108176.7500   140305.7500   125373.2500    97812.7500   114068.5000        1.0000        1.0000
    8989.99741     4690.0000        2.7500    49503.0000    43472.0000    34179.0000    41326.0000   133572.5000   120534.7500    95281.7500   110475.7500   143002.7500   127979.2500    99474.7500   116537.5000        2.0000        1.0000
    8990.49841     4691.0000        3.7500    52390.0000    45265.0000    36149.0000    43434.0000   136822.5000   123567.7500    97409.7500   112589.7500   146874.7500   131237.2500   101860.7500   118931.5000        1.0000        1.0000
    8990.99943     4691.0000        2.7500    54869.0000    48046.0000    37723.0000    45112.0000   139770.5000   125875.7500    99521.7500   114956.7500   150087.7500   133979.2500   104213.7500   121741.5000        2.0000        1.0000
    8991.50047     4688.0000        2.7500    57814.0000    50301.0000    39905.0000    48006.0000   142569.5000   128455.7500   101908.7500   117957.7500   153425.7500   137012.2500   106943.7500   124972.5000        1.0000        1.0000
    8992.00152     4693.0000        2.7500    62155.0000    53926.0000    43144.0000    51663.0000   147261.5000   133224.7500   105675.7500   122476.7500   159375.7500   142504.2500   110833.7500   130319.5000        2.0000        1.0000
    8992.50259     4697.0000        2.7500    67023.0000    58211.0000    46499.0000    55634.0000   152891.5000   137163.7500   109284.7500   127203.7500   165790.7500   146926.2500   114963.7500   135459.5000        1.0000        1.0000
    8992.99805     4693.0000        2.7500    71270.0000    62537.0000    49656.0000    59202.0000   157704.5000   142337.7500   113182.7500   131319.7500   171455.7500   153116.2500   119365.7500   140254.5000        1.0000        1.0000
    8993.49915     4690.0000        3.7500    75433.0000    66259.0000    53067.0000    63588.0000   162484.5000   146445.7500   117166.7500   135772.7500   177159.7500   157812.2500   123746.7500   145342.5000        2.0000        1.0000
    8994.00027     4685.0000        2.7500    77686.0000    68202.0000    54693.0000    65786.0000   165193.5000   149264.7500   119067.7500   138071.7500   180535.7500   161264.2500   125873.7500   148323.5000        1.0000        1.0000
    8994.50141     4687.0000        3.7500    81041.0000    71411.0000    56768.0000    67440.0000   168863.5000   152527.7500   121614.7500   141033.7500   184903.7500   164766.2500   128719.7500   151679.5000        1.0000        1.0000
    8995.00257     4680.0000        2.7500    82876.0000    73335.0000    58443.0000    69707.0000   171364.5000   154537.7500   122995.7500   143016.7500   188038.7500   167422.2500   130394.7500   154130.5000        1.0000        1.0000
    8995.49812     4694.0000        3.7500    85700.0000    75262.0000    60399.0000    71965.0000   173997.5000   157086.7500   125593.7500   145800.7500   191188.7500   170333.2500   133446.7500   157397.5000        2.0000        1.0000
    8995.99931     4683.0000        2.7500    87010.0000    76051.0000    61221.0000    72605.0000   174580.5000   157673.7500   126082.7500   146240.7500   192024.7500   171135.2500   133876.7500   157943.5000        2.0000        1.0000
    8996.50052     4671.0000        3.7500    87580.0000    76190.0000    61640.0000    73831.0000   175754.5000   157340.7500   127014.7500   147314.7500   193413.7500   170681.2500   134674.7500   159101.5000        1.0000        1.0000
    8997.00175     4684.0000        2.7500    87726.0000    77263.0000    62025.0000    73890.0000   176375.5000   159106.7500   127390.7500   147863.7500   194152.7500   172716.2500   135398.7500   159443.5000        2.0000        1.0000
    8997.49737     4667.0000        2.7500    87658.0000    76528.0000    61655.0000    73211.0000   175689.5000   157830.7500   126946.7500   146928.7500   193463.7500   171292.2500   134867.7500   158493.5000        1.0000        1.0000
    8997.99863     4674.0000        2.7500    87551.0000    77094.0000    61670.0000    73204.0000   176036.5000   158518.7500   126725.7500   147184.7500   193320.7500   172211.2500   134631.7500   158916.5000        1.0000        1.0000
    8998.49991     4662.0000        3.7500    87567.0000    76470.0000    61709.0000    73440.0000   175759.5000   157805.7500   126798.7500   147086.7500   193491.7500   171148.2500   134637.7500   158739.5000        1.0000        1.0000
    8999.00121     4635.0000        3.7500    86773.0000    76163.0000    61132.0000    72808.0000   175114.5000   157042.7500   125760.7500   145962.7500   192320.7500   170247.2500   133560.7500   157384.5000        1.0000        1.0000
    8999.50253     4565.0000        2.7500    85708.0000    74606.0000    60330.0000    71484.0000   172358.5000   154947.7500   124369.7500   143485.7500   189248.7500   167686.2500   131843.7500   154479.5000        1.0000        1.0000
    8999.99823     4503.0000        3.7500    84324.0000    73673.0000    59135.0000    70906.0000   169879.5000   153241.7500   122584.7500   142423.7500   186212.7500   165740.2500   129773.7500   153473.5000        1.0000        1.0000
    9000.49959     4506.0000        2.7500    84550.0000    73799.0000    59463.0000    70720.0000   170325.5000   152854.7500   122790.7500   142222.7500   186692.7500   165276.2500   130148.7500   153032.5000        1.0000        1.0000
    9001.00096     4564.0000        3.7500    85516.0000    73685.0000    59864.0000    71748.0000   172136.5000   153693.7500   123754.7500   144143.7500   188855.7500   166671.2500   131340.7500   155220.5000        1.0000        1.0000
    9001.50235     4664.0000        2.7500    85957.0000    75240.0000    60067.0000    71960.0000   173852.5000   156779.7500   125082.7500   146043.7500   190997.7500   169946.2500   132604.7500   157317.5000        2.0000        1.0000
    9001.99812     4691.0000        2.7500    85855.0000    75304.0000    59968.0000    71942.0000   173901.5000   156278.7500   125315.7500   145257.7500   191024.7500   169501.2500   132820.7500   156609.5000        1.0000        1.0000
    9002.49954     4692.0000        3.7500    84164.0000    74279.0000    59135.0000    70713.0000   172429.5000   155676.7500   123934.7500   144666.7500   189316.7500   168711.2500   131463.7500   156053.5000        1.0000        1.0000
    9003.00098     4691.0000        3.7500    83066.0000    73434.0000    58436.0000    69847.0000   171539.5000   154808.7500   123196.7500   143473.7500   188369.7500   167819.2500   130557.7500   154401.5000        1.0000        1.0000
    9003.50244     4692.0000        2.7500    82801.0000    72587.0000    57647.0000    68868.0000   171203.5000   153603.7500   122599.7500   142278.7500   187778.7500   165910.2500   129930.7500   153026.5000        1.0000        1.0000
    9003.99828     4695.0000        2.7500    81271.0000    71512.0000    57629.0000    68844.0000   169506.5000   152868.7500   121744.7500   142087.7500   185878.7500   165380.2500   128966.7500   152975.5000        1.0000        1.0000
    9004.49978     4696.0000        2.7500    80754.0000    70932.0000    56660.0000    67911.0000   168665.5000   152009.7500   121304.7500   141229.7500   184697.7500   164556.2500   128295.7500   151990.5000        1.0000        1.0000
    9005.00129     4680.0000        2.7500    79652.0000    69892.0000    56151.0000    67081.0000   167325.5000   150894.7500   120301.7500   139733.7500   183091.7500   162806.2500   127389.7500   150273.5000        1.0000        1.0000
    9005.50282     4690.0000        2.7500    79667.0000    70010.0000    55529.0000    66350.0000   167382.5000   150620.7500   119923.7500   139183.7500   183126.7500   162753.2500   126895.7500   149775.5000        1.0000        1.0000
    9005.99873     4685.0000        3.7500    78785.0000    69128.0000    55647.0000    66350.0000   166442.5000   150243.7500   119973.7500   138539.7500   182070.7500   162284.2500   127021.7500   148919.5000        1.0000        1.0000
    9006.50029     4685.0000        2.7500    78707.0000    68596.0000    54928.0000    65397.0000   166737.5000   149323.7500   119174.7500   138138.7500   182336.7500   161256.2500   126091.7500   148179.5000        2.0000        1.0000
    9007.00187     4694.0000        3.7500    78128.0000    68273.0000    54485.0000    65391.0000   165480.5000   149387.7500   119122.7500   138329.7500   181075.7500   161288.2500   125999.7500   148355.5000        2.0000        1.0000
    9007.49784     4679.0000        3.7500    77072.0000    67552.0000    53997.0000    64675.0000   164426.5000   148104.7500   118196.7500   137392.7500   179749.7500   159840.2500   124951.7500   147267.5000        1.0000        1.0000
    9007.99946     4686.0000        2.7500    76934.0000    67313.0000    53604.0000    64095.0000   164022.5000   147864.7500   117701.7500   137343.7500   179330.7500   159426.2500   124381.7500   147314.5000        1.0000        1.0000
    9008.50109     4694.0000        3.7500    76943.0000    66969.0000    53340.0000    63973.0000   165122.5000   147758.7500   117378.7500   136973.7500   180150.7500   159348.2500   124073.7500   146990.5000        1.0000        1.0000
    9010.07938     4681.0000        2.7500    75163.0000    66035.0000    52241.0000    62292.0000   162146.5000   146808.7500   115840.7500   135052.7500   177067.7500   158213.2500   122293.7500   144612.5000        1.0000        1.0000
    9011.17865     4673.0000        3.7500    74571.0000    64948.0000    52240.0000    62055.0000   161184.5000   144971.7500   116090.7500   134038.7500   175772.7500   156202.2500   122584.7500   143405.5000        1.0000        1.0000
    9012.29492     4672.0000        2.7500    74213.0000    64068.0000    51656.0000    61566.0000   161625.5000   144021.7500   115065.7500   133182.7500   175994.7500   155011.2500   121468.7500   142251.5000        2.0000        1.0000
    9013.42820     4671.0000        3.7500    73034.0000    63977.0000    50833.0000    61084.0000   160089.5000   143747.7500   114582.7500   133001.7500   174273.7500   154745.2500   120772.7500   142455.5000        1.0000        1.0000
    9014.58411     4689.0000        3.7500    72851.0000    64092.0000    50599.0000    61049.0000   159475.5000   144094.7500   114011.7500   133511.7500   173557.7500   154936.2500   120298.7500   142668.5000        1.0000        1.0000
    9015.75704     4680.0000        2.7500    72357.0000    63298.0000    50225.0000    59920.0000   158987.5000   143001.7500   113567.7500   131605.7500   172913.7500   153765.2500   119776.7500   140729.5000        2.0000        1.0000
    9016.95263     4676.0000        2.7500    71216.0000    62720.0000    49508.0000    59704.0000   157420.5000   142894.7500   113334.7500   131866.7500   171246.7500   153593.2500   119437.7500   141013.5000        2.0000        1.0000
    9018.16523     4682.0000        3.7500    70708.0000    62144.0000    49031.0000    58922.0000   157561.5000   141519.7500   112536.7500   131178.7500   171599.7500   152203.2500   118582.7500   140219.5000        1.0000        1.0000
    9019.39486     4668.0000        3.7500    69791.0000    61680.0000    48987.0000    58331.0000   156579.5000   141323.7500   112437.7500   129999.7500   169988.7500   151884.2500   118462.7500   138824.5000        1.0000        1.0000
    9020.64152     4680.0000        2.7500    70048.0000    60929.0000    48764.0000    58070.0000   156895.5000   140618.7500   112311.7500   130079.7500   170222.7500   151133.2500   118328.7500   138810.5000        1.0000        1.0000
    9021.91086     4679.0000        2.7500    69243.0000    60606.0000    47963.0000    57713.0000   155825.5000   139857.7500   111089.7500   129848.7500   169090.7500   150054.2500   117159.7500   138542.5000        1.0000        1.0000
    9023.20287     4673.0000        3.7500    69251.0000    60726.0000    48090.0000    57488.0000   155517.5000   140892.7500   111246.7500   129210.7500   168795.7500   151130.2500   117311.7500   137905.5000        1.0000        1.0000
    9024.50629     4670.0000        3.7500    68557.0000    59829.0000    47783.0000    57050.0000   154927.5000   139287.7500   111070.7500   128362.7500   167970.7500   149396.2500   116950.7500   137035.5000        1.0000        1.0000
    9025.83240     4665.0000        2.7500    68387.0000    59805.0000    47376.0000    56877.0000   154837.5000   139339.7500   110768.7500   128245.7500   167934.7500   149461.2500   116728.7500   136909.5000        1.0000        1.0000
    9027.18121     4683.0000        3.7500    68477.0000    60073.0000    47857.0000    57244.0000   155029.5000   139413.7500   111725.7500   129064.7500   168266.7500   149700.2500   117688.7500   137785.5000        1.0000        1.0000
    9028.54143     4673.0000        3.7500    68318.0000    59779.0000    47573.0000    56985.0000   154575.5000   139573.7500   110763.7500   128268.7500   167979.7500   149845.2500   116587.7500   136969.5000        1.0000        1.0000
    9029.93001     4670.0000        3.7500    68846.0000    60182.0000    47421.0000    56966.0000   154846.5000   140433.7500   110720.7500   128589.7500   168112.7500   150595.2500   116579.7500   137206.5000        2.0000        1.0000
    9031.33001     4669.0000        3.7500    68862.0000    60604.0000    48023.0000    57426.0000   155634.5000   140475.7500   111526.7500   129277.7500   168931.7500   150728.2500   117593.7500   137969.5000        1.0000        1.0000
    9032.75274     4657.0000        2.7500    69988.0000    60860.0000    48592.0000    58127.0000   156599.5000   140577.7500   111560.7500   129594.7500   169831.7500   150937.2500   117452.7500   138306.5000        1.0000        1.0000
    9034.19254     4659.0000        3.7500    69985.0000    60944.0000    48856.0000    58508.0000   155919.5000   140718.7500   111805.7500   129810.7500   169384.7500   150921.2500   117822.7500   138486.5000        1.0000        1.0000
    9035.64943     4669.0000        3.7500    71585.0000    62015.0000    49521.0000    58941.0000   158407.5000   141836.7500   113032.7500   131439.7500   172013.7500   152377.2500   119263.7500   140311.5000        1.0000        1.0000
    9037.12905     4663.0000        3.7500    72297.0000    62685.0000    49778.0000    59936.0000   158763.5000   142603.7500   113318.7500   131807.7500   172813.7500   153386.2500   119454.7500   140939.5000        1.0000        1.0000
    9038.62578     4654.0000        2.7500    72754.0000    63334.0000    50593.0000    60786.0000   159862.5000   143490.7500   114016.7500   132655.7500   173903.7500   154394.2500   120405.7500   142051.5000        1.0000        1.0000
    9040.52373     4673.4250        3.4788    74066.0000    64797.0000    51852.0000    61880.0000   161672.4475   145254.7238   115515.7238   134228.7238   176163.6888   156198.1963   121956.7238   143620.4475        0.5100        1.0050
    9042.06036     4690.0450        3.8278    75546.0000    66057.0000    52143.0000    62196.0000   163531.3215   146934.6608   116288.6607   135574.6608   177942.5418   157998.0672   122883.6607   145090.3215        1.3340        1.0170
    9043.61974     4644.5500        3.1225    75686.0000    65111.0000    52535.0000    63017.0000   163381.1850   145835.5925   116831.5925   136027.5925   177784.3825   156835.9275   123211.5925   145359.1850        1.0600        1.0300
    9045.20190     4868.1700        2.4715    79567.0000    69066.0000    55492.0000    66209.0000   170780.0590   153764.5295   122543.5295   142075.5295   186390.2355   165930.7985   129489.5295   152284.0590        0.8840        1.0420
    9046.79554     4931.6750        2.7663    80938.0000    70845.0000    56832.0000    67145.0000   173232.9225   155891.4612   124688.4612   144183.4612   189308.0763   168461.6588   131870.4612   154385.9225        1.6100        1.0550
    9048.41196     4990.2950        4.1153    81917.0000    72186.0000    57466.0000    69109.0000   175190.7965   158238.3982   126211.3982   147181.3982   191269.9292   170770.5297   133433.3982   157934.7965        1.4340        1.0670
    9050.05117     5028.8000        3.4100    83699.0000    72798.0000    58343.0000    69699.0000   177561.6600   159964.3300   127663.3300   148180.3300   193989.7700   172564.3900   135029.3300   158946.6600        1.1600        1.0800
    9051.70753     5085.4200        3.7590    85372.0000    73767.0000    59363.0000    71003.0000   180208.5340   161935.2670   129709.2670   150571.2670   196921.6230   174550.2610   137162.2670   161466.5340        0.9840        1.0920
    9053.38104     5151.9250        3.0538    85601.0000    75453.0000    59460.0000    71926.0000   182888.3975   164720.1988   130659.1987   152369.1988   199735.4637   177763.1212   138290.1988   163606.3975        1.7100        1.1050
    9055.07171     5204.5450        3.4027    87306.0000    76536.0000    61052.0000    72741.0000   185394.2715   166521.1357   133017.1357   154213.1357   202499.3167   179744.9923   140708.1357   165392.2715        1.5340        1.1170
    9056.78519     5259.0500        3.6975    88246.0000    77058.0000    61493.0000    73436.0000   186891.1350   168046.0675   134212.0675   155475.0675   204392.1575   181369.8525   141786.0675   166969.1350        1.2600        1.1300
    9058.51585     5320.6700        3.0465    89703.0000    78014.0000    61939.0000    73848.0000   189527.0090   170670.0045   135752.0045   157606.0045   207133.0105   184233.7235   143623.0045   169229.0090        1.0840        1.1420
    9060.26368     5363.1750        3.3412    89764.0000    78600.0000    62861.0000    74976.0000   191113.8725   172019.9362   137192.9362   159184.9362   208869.8513   185667.5837   145027.9362   170709.8725        0.8100        1.1550
    9062.03435     5406.7950        3.6902    89743.0000    78497.0000    63504.0000    75385.0000   191328.7465   172789.8733   138222.8733   160091.8733   209016.7043   186376.4548   146159.8733   171666.7465        1.6340        1.1670
    9063.82222     5490.3000        2.9850    91040.0000    79900.0000    63832.0000    76267.0000   194681.6100   175423.8050   139848.8050   162339.8050   212611.5450   189363.3150   147983.8050   174297.6100        1.3600        1.1800
    9065.62728     5539.9200        3.3340    91528.0000    80951.0000    64119.0000    76369.0000   195656.4840   177314.7420   140293.7420   163081.7420   213769.3980   191359.1860   148415.7420   175021.4840        1.1840        1.1920
    9067.45520     5581.4250        3.6287    92742.0000    81069.0000    64434.0000    77344.0000   197830.3475   177909.6737   141340.6737   164721.6737   215945.2387   191875.0463   149520.6737   176606.3475        0.9100        1.2050
    9069.30033     5659.0450        2.9778    93256.0000    81474.0000    64753.0000    77594.0000   199101.2215   179526.6107   142794.6107   166085.6107   217421.0917   193552.9172   150906.6107   178170.2215        1.7340        1.2170
    9071.16834     5702.5500        4.2725    94143.0000    82077.0000    66084.0000    78806.0000   201130.0850   181482.5425   144400.5425   167437.5425   219409.9325   195627.7775   152696.5425   179537.0850        1.4600        1.2300
    9073.04791     5760.1700        4.6215    94607.0000    82762.0000    65964.0000    79167.0000   203053.9590   182916.4795   145289.4795   169011.4795   221581.7855   197070.6485   153548.4795   181113.9590        2.2840        1.2420
    9074.95037     5829.6750        3.9163    94861.0000    83114.0000    66977.0000    79513.0000   205006.8225   183782.4113   147286.4113   170248.4113   223520.6263   198266.5088   155456.4113   182601.8225        2.0100        1.2550
    9076.87573     5883.2950        4.2653    95684.0000    83981.0000    66359.0000    79507.0000   206343.6965   186381.3483   147055.3483   171294.3483   224984.4793   200919.3797   155459.3483   183389.6965        1.8340        1.2670
    9078.81268     5924.8000        4.5600    96627.0000    84229.0000    67162.0000    80157.0000   208336.5600   187241.2800   148775.2800   172545.2800   227216.3200   201725.2400   157344.2800   184911.5600        1.5600        1.2800
    9080.77254     5993.4200        3.9090    97380.0000    85275.0000    67898.0000    80659.0000   210068.4340   189286.2170   150469.2170   174395.2170   228832.1730   204220.1110   158942.2170   186921.4340        1.3840        1.2920
    9082.74965     6054.9250        4.2037    97611.0000    85474.0000    68261.0000    81447.0000   211732.2975   190348.1487   151894.1487   175791.1487   230904.0138   205258.9713   160410.1487   188049.2975        2.1100        1.3050
    9084.74970     6103.5450        3.5528    99097.0000    85903.0000    68355.0000    81744.0000   213904.1715   191574.0857   152681.0857   176614.0857   233245.8667   206293.8422   161295.0857   189028.1715        1.9340        1.3170
    9086.76703     6152.0500        4.8475    98815.0000    86552.0000    68911.0000    82007.0000   214824.0350   193299.0175   152938.0175   177901.0175   234081.7075   208172.7025   161416.0175   190265.0350        1.6600        1.3300
    9088.80163     6222.6700        4.1965    99707.0000    86748.0000    69459.0000    83281.0000   216425.9090   194829.9545   154713.9545   179916.9545   235878.5605   209718.5735   163241.9545   192623.9090        1.4840        1.3420
    9090.85919     6284.1750        4.4913   100080.0000    87801.0000    69657.0000    84005.0000   218795.7725   196467.8863   156314.8863   181515.8863   238149.4012   211577.4337   165176.8863   194511.7725        1.2100        1.3550
    9092.93405     6312.7950        3.8402   100729.0000    87734.0000    70355.0000    84567.0000   218866.6465   197299.8232   157284.8232   182992.8232   238381.2542   212488.3048   165935.8232   195798.6465        2.0340        1.3670
    9095.02621     6381.3000        4.1350   101760.0000    89426.0000    70605.0000    84655.0000   222275.5100   199839.7550   158537.7550   184173.7550   242063.0950   215154.1650   167238.7550   197257.5100        1.7600        1.3800
    9097.13568     6443.9200        4.4840   103118.0000    89506.0000    71470.0000    85608.0000   224257.3840   201475.6920   160189.6920   185632.6920   244351.9480   217040.0360   169229.6920   198840.3840        1.5840        1.3920
    9099.26814     6505.4250        4.7788   104470.0000    91139.0000    72633.0000    86696.0000   226729.2475   203943.6237   162209.6237   187977.6237   247128.7888   219454.8962   171128.6237   201230.2475        1.3100        1.4050
    9101.41792     6547.0450        5.1277   105093.0000    91625.0000    72835.0000    87093.0000   228402.1215   205318.5608   163566.5608   188915.5608   248982.6418   220997.7673   172762.5608   202239.1215        1.1340        1.4170
    9103.58504     6618.5500        4.4225   106456.0000    92121.0000    73818.0000    88232.0000   230984.9850   207492.4925   165197.4925   191447.4925   251829.4825   223275.6275   174395.4925   204944.9850        1.8600        1.4300
    9105.77518     6664.1700        4.7715   106897.0000    93371.0000    74477.0000    89381.0000   232070.8590   209154.4295   166317.4295   193195.4295   252912.3355   225407.4985   175579.4295   206975.8590        1.6840        1.4420
    9107.98266     6729.6750        4.0662   108656.0000    94155.0000    74913.0000    89296.0000   235213.7225   210958.3612   167726.3612   193999.3612   256381.1762   227150.3588   177050.3612   207583.7225        1.4100        1.4550
    9110.20750     6769.2950        4.4153   109490.0000    95387.0000    75798.0000    90329.0000   236891.5965   212378.2982   169184.2982   196174.2982   257961.0292   228514.2297   178688.2982   210070.5965        1.2340        1.4670
    9112.45539     6826.8000        3.7100   110841.0000    96772.0000    76163.0000    91235.0000   239142.4600   215649.2300   170270.2300   197822.2300   260605.8700   231971.0900   179859.2300   212032.4600        1.9600        1.4800
    9114.72064     6893.4200        5.0590   111471.0000    97048.0000    77331.0000    92684.0000   241567.3340   216841.1670   172422.1670   199831.1670   263495.7230   233532.9610   182150.1670   214103.3340        1.7840        1.4920
    9117.00328     6860.9250        4.3538   111068.0000    96412.0000    76850.0000    92493.0000   240632.1975   216142.0988   172037.0988   199564.0988   262027.5638   232464.8213   181578.0988   213587.1975        2.5100        1.5050
    9119.30331     6889.5450        4.7028   111766.0000    97902.0000    77887.0000    93194.0000   242726.0715   218093.0358   173034.0358   200961.0358   263786.4167   234750.6922   182667.0358   214963.0715        1.3340        1.5170
    9121.62642     7041.0500        4.9975   115022.0000   100206.0000    78699.0000    95532.0000   247993.9350   222606.9675   175974.9675   205778.9675   270256.2575   239777.5525   185916.9675   220642.9350        2.0600        1.5300
    9123.96693     7115.6700        5.3465   116159.0000   101341.0000    80549.0000    96474.0000   249852.8090   225043.9045   178985.9045   207524.9045   272600.1105   242375.4235   188875.9045   222317.8090        1.8840        1.5420
    9126.32486     7159.1750        4.6412   116258.0000   102026.0000    81370.0000    96724.0000   251373.6725   227087.8362   180238.8362   208132.8362   274160.9512   244278.2838   190197.8362   222776.6725        2.6100        1.5550
    9128.70589     7230.7950        4.9903   118483.0000   103024.0000    81345.0000    98614.0000   254810.5465   228974.7732   181510.7732   211076.7732   277745.8042   246934.1547   191893.7732   226203.5465        2.4340        1.5670
    9131.10436     7274.3000        5.2850   118803.0000   103947.0000    82564.0000    99502.0000   256517.4100   230759.7050   182949.7050   213458.7050   279942.6450   248534.0150   193226.7050   228557.4100        2.1600        1.5800
    9133.52026     7322.9200        4.6340   120326.0000   104405.0000    83217.0000    99123.0000   258933.2840   232082.6420   184750.6420   214155.6420   282488.4980   250127.8860   195098.6420   229287.2840        1.9840        1.5920
    9135.95362     7390.4250        4.9288   121085.0000   106465.0000    84259.0000   100725.0000   261312.1475   235599.5738   186353.5738   216337.5738   284978.3387   253772.7462   196942.5738   231656.1475        2.7100        1.6050
    9138.41011     7432.0450        5.2777   122024.0000   106984.0000    84839.0000   101696.0000   262531.0215   236544.5107   187609.5107   218483.5107   286251.1917   254984.6173   198089.5107   234145.0215        1.5340        1.6170
    9140.88408     7487.5500        4.5725   123217.0000   107911.0000    85370.0000   102500.0000   265007.8850   239228.4425   189013.4425   219480.4425   289119.0325   257855.4775   199669.4425   235110.8850        2.2600        1.6300
    9143.37551     7541.1700        4.9215   123711.0000   108487.0000    86591.0000   103912.0000   266447.7590   240280.3795   191412.3795   222071.3795   290714.8855   259099.3485   202119.3795   237926.7590        2.0840        1.6420
    9145.89012     7603.6750        5.2163   125842.0000   109811.0000    87174.0000   103975.0000   269672.6225   242699.3112   192499.3112   223288.3112   294182.7263   261477.2087   203466.3112   239182.6225        1.8100        1.6550
    9148.42222     7646.2950        5.5652   126222.0000   110616.0000    88091.0000   105367.0000   270684.4965   244197.2483   194366.2483   225448.2483   294974.5793   263343.0797   205400.2483   241679.4965        2.6340        1.6670
    9150.97183     7711.8000        5.8600   127750.0000   111429.0000    88411.0000   106002.0000   273778.3600   246754.1800   196029.1800   227760.1800   298827.4200   266015.9400   206918.1800   243876.3600        2.3600        1.6800
    9153.53894     7768.4200        5.2090   128783.0000   112353.0000    89574.0000   106831.0000   275543.2340   248298.1170   197698.1170   229211.1170   300424.2730   267768.8110   208937.1170   245764.2340        2.1840        1.6920
    9156.12927     7818.9250        5.5037   128899.0000   112534.0000    90122.0000   107499.0000   277079.0975   249938.0487   198945.0487   230191.0487   302202.1138   269451.6713   210341.0487   246831.0975        1.9100        1.7050
    9158.73712     7872.5450        4.8528   129893.0000   114362.0000    90402.0000   109058.0000   279373.9715   252648.9857   199943.9857   232996.9857   304911.9668   272319.5422   211336.9857   249667.9715        2.7340        1.7170
    9161.36251     7925.0500        5.1475   131740.0000   114851.0000    91232.0000   108994.0000   282549.8350   253892.9175   201699.9175   233148.9175   308392.8075   273496.4025   213127.9175   250067.8350        2.4600        1.7300
    9164.00545     7907.6700        6.4965   131310.0000   114503.0000    90906.0000   109494.0000   281947.7090   253828.8545   200924.8545   233946.8545   307197.6605   273357.2735   212311.8545   250661.7090        2.2840        1.7420
    9166.67164     8028.1750        5.7913   133012.0000   115454.0000    92453.0000   110627.0000   285809.5725   256919.7863   204873.7863   237061.7863   311915.5012   276819.1337   216527.7863   253945.5725        2.0100        1.7550
    9169.35539     8073.7950        6.1403   133999.0000   116922.0000    92612.0000   111169.0000   286814.4465   258326.7233   204899.7233   238144.7233   312634.3542   278634.0048   216221.7233   254627.4465        1.8340        1.7670
    9172.05672     8115.3000        6.4350   133921.0000   117482.0000    93243.0000   111506.0000   288695.3100   259979.6550   206588.6550   239205.6550   314696.1950   280209.8650   218193.6550   256289.3100        1.5600        1.7800
    9174.78133     8170.9200        4.7840   135088.0000   117525.0000    93708.0000   112641.0000   290998.1840   261414.5920   207672.5920   241244.5920   317124.0480   281599.7360   219259.5920   258517.1840        1.3840        1.7920
    9177.51783     8125.4250        6.0787   134199.0000   117551.0000    92494.0000   111503.0000   289032.0475   260276.5237   206274.5237   239622.5237   314787.8887   280062.5963   217489.5237   256045.0475        2.1100        1.8050
    9180.27764     8287.0450        5.4278   136691.0000   118378.0000    94862.0000   112639.0000   293756.9215   264589.4608   210607.4607   243345.4607   320301.7417   285037.4672   222493.4607   260449.9215        1.9340        1.8170
    9183.06076     8357.5500        5.7225   137322.0000   119714.0000    95167.0000   113215.0000   296199.7850   266571.3925   211488.3925   245309.3925   323008.5825   287331.3275   223297.3925   262992.7850        2.6600        1.8300
    9185.85580     8403.1700        6.0715   138240.0000   120695.0000    95911.0000   114466.0000   297922.6590   268333.3295   212906.3295   247026.3295   324769.4355   289054.1985   224896.3295   264327.6590        1.4840        1.8420
    9188.67418     8461.6750        5.3663   138755.0000   121332.0000    96224.0000   114518.0000   299935.5225   270119.2612   214294.2613   247572.2613   327093.2762   290811.0588   226365.2613   265217.5225        2.2100        1.8550
    9191.51019     8514.2950        5.7152   140031.0000   122437.0000    96980.0000   115835.0000   301117.3965   272083.1983   215416.1982   249883.1982   328482.1292   293268.9298   227498.1982   267443.3965        2.0340        1.8670
    9194.36386     8556.8000        6.0100   140134.0000   123059.0000    97146.0000   116164.0000   302979.2600   273746.1300   216961.1300   251020.1300   330065.9700   295232.7900   229131.1300   268557.2600        2.7600        1.8800
    9197.24090     8594.4200        6.3590   140529.0000   123323.0000    97723.0000   116584.0000   304956.1340   274352.0670   217512.0670   251507.0670   332433.8230   295441.6610   229738.0670   269271.1340        2.5840        1.8920
    9200.12989     8656.9250        5.6538   141680.0000   123316.0000    98366.0000   117747.0000   306297.9975   276155.9988   219310.9987   254306.9987   333419.6638   297266.5212   231682.9987   272141.9975        3.3100        1.9050
    9203.04228     8719.5450        6.0027   143391.0000   124865.0000    99014.0000   118743.0000   309938.8715   278447.9358   220332.9358   256546.9358   337940.5168   300027.3922   232680.9358   274570.8715        2.1340        1.9170
    9205.97235     8773.0500        6.2975   143672.0000   125756.0000    99597.0000   119553.0000   310894.7350   280205.8675   221617.8675   257801.8675   338866.3575   301876.2525   233848.8675   276125.7350        2.8600        1.9300
    9208.92584     8822.6700        5.6465   144716.0000   125952.0000   100344.0000   119963.0000   313054.6090   281635.8045   223979.8045   258985.8045   341243.2105   303305.1235   236484.8045   277048.6090        2.6840        1.9420
    9211.89703     8855.1750        5.9412   145235.0000   127199.0000   100595.0000   120385.0000   314593.4725   283409.7363   224977.7362   260320.7362   343028.0513   305130.9838   237518.7362   278617.4725        2.4100        1.9550
    9214.88024     8918.7950        6.2903   146551.0000   127632.0000   101006.0000   121502.0000   316790.3465   284844.6732   226676.6732   261757.6732   345000.9043   306613.8547   239283.6732   280215.3465        2.2340        1.9670
    9217.89260     8981.3000        6.5850   147013.0000   128409.0000   102337.0000   122294.0000   319183.2100   287073.6050   227218.6050   263748.6050   347515.7450   308949.7150   239839.6050   282425.2100        2.9600        1.9800
    9220.91698     8983.9200        5.9340   147553.0000   129352.0000   102076.0000   122271.0000   319474.0840   288199.5420   228034.5420   264207.5420   348088.5980   310082.5860   240565.5420   282506.0840        2.7840        1.9920
    9223.96484     8950.4250        6.2288   147696.0000   129070.0000   101675.0000   121988.0000   318548.9475   287988.4738   226424.4738   263169.4738   346469.4387   309710.4462   238845.4738   281422.9475        2.5100        2.0050
    9227.02473     9098.0450        6.5778   150044.0000   130254.0000   103467.0000   123856.0000   323914.8215   291515.4107   230958.4108   267971.4107   352882.2917   313936.3173   243966.4108   286803.8215        2.3340        2.0170
    9230.10811     9188.5500        5.8725   150799.0000   131769.0000   104245.0000   124823.0000   326380.6850   294018.3425   232535.3425   270058.3425   355976.1325   316897.1775   245450.3425   288877.6850        2.0600        2.0300
    9233.21500     9240.1700        6.2215   152206.0000   132894.0000   105040.0000   125646.0000   327819.5590   296450.2795   234933.2795   271693.2795   357399.9855   319122.0485   247820.2795   290911.5590        2.8840        2.0420
    9236.33396     9237.6750        6.5162   152526.0000   133166.0000   104654.0000   126091.0000   329024.4225   297079.2112   234637.2112   272351.2112   358309.8262   319842.9088   247528.2112   291154.4225        2.6100        2.0550
    9239.47643     9357.2950        6.8652   154462.0000   134267.0000   106824.0000   127234.0000   333404.2965   300132.1483   238029.1482   274685.1483   363334.6792   323145.7797   251406.1482   294054.2965        2.4340        2.0670
    9242.63673     9383.8000        6.1600   154545.0000   135041.0000   107211.0000   128348.0000   334029.1600   301450.0800   238804.0800   276508.0800   363992.5200   324697.6400   251993.0800   295958.1600        3.1600        2.0800
    9245.81484     9453.4200        6.5090   156483.0000   135734.0000   107716.0000   128728.0000   338040.0340   302996.0170   239855.0170   277914.0170   368576.3730   326717.5110   253311.0170   297236.0340        2.9840        2.0920
    9249.01079     9462.9250        6.8038   155736.0000   135725.0000   107850.0000   129587.0000   337116.8975   303878.9487   240597.9488   278933.9487   367192.2137   327097.3713   253945.9488   298500.8975        2.7100        2.1050
    9252.23030     9538.5450        6.1527   157585.0000   137866.0000   109115.0000   130318.0000   340020.7715   306997.8858   243668.8857   281142.8858   370663.0667   330721.2423   257126.8857   300872.7715        2.5340        2.1170
    9255.46768     9614.0500        7.4475   158587.0000   138236.0000   109760.0000   131013.0000   343230.6350   309570.8175   245006.8175   282783.8175   373933.9075   333697.1025   258483.8175   302983.6350        2.2600        2.1300
    9258.71718     9668.6700        6.7965   160643.0000   140290.0000   110349.0000   132550.0000   345116.5090   311674.7545   246055.7545   285595.7545   376078.7605   335420.9735   259959.7545   305839.5090        3.0840        2.1420
    9261.99603     9702.1750        7.0913   160517.0000   139529.0000   110326.0000   132125.0000   346670.3725   311965.6863   246690.6862   286272.6863   377981.6013   335747.8337   260529.6862   306337.3725        2.8100        2.1550
    9265.28702     9759.7950        6.4403   160905.0000   140919.0000   111355.0000   133602.0000   348561.2465   313624.6233   248771.6233   288457.6233   379582.4543   337628.7047   262816.6233   308907.2465        2.6340        2.1670
    9268.60165     9811.3000        6.7350   161910.0000   141870.0000   111899.0000   134750.0000   350157.1100   316381.5550   250152.5550   289577.5550   381585.2950   340927.5650   263989.5550   309677.1100        3.3600        2.1800
    9271.92845     9853.9200        7.0840   163385.0000   141915.0000   112163.0000   135442.0000   353037.9840   317597.4920   250821.4920   291926.4920   384667.1480   341781.4360   264767.4920   312690.9840        2.1840        2.1920
    9275.27890     9911.4250        7.3787   164363.0000   143460.0000   113032.0000   136369.0000   354692.8475   320010.4238   252620.4237   293418.4238   386745.9888   344736.2963   266483.4238   313844.8475        1.9100        2.2050
    9278.65303     9955.0450        6.7278   163992.0000   143540.0000   113676.0000   136214.0000   355367.7215   320850.3607   253817.3607   294113.3607   387304.8418   345275.1672   267938.3607   314762.7215        2.7340        2.2170
    9282.03935    10001.5500        6.0225   165451.0000   144698.0000   114058.0000   136570.0000   357427.5850   322645.2925   255435.2925   295645.2925   389307.6825   347293.0275   269583.2925   316326.5850        3.4600        2.2300
    9285.44362    10063.1700        7.3715   166433.0000   145018.0000   115165.0000   137819.0000   359770.4590   324705.2295   257179.2295   297778.2295   392012.5355   349839.8985   271199.2295   318815.4590        3.2840        2.2420
    9288.87160    10123.6750        6.6663   167481.0000   145871.0000   116239.0000   138746.0000   361633.3225   326613.1613   258858.1613   299457.1613   393972.3762   351443.7587   273372.1613   320211.3225        3.0100        2.2550
    9292.31755    10155.2950        7.0153   167764.0000   146852.0000   115889.0000   138719.0000   362929.1965   328062.0982   259311.0983   300162.0982   395385.2292   353009.6298   273534.0982   321482.1965        2.8340        2.2670
    9295.78148    10138.8000        7.3100   167399.0000   146460.0000   115399.0000   139144.0000   363522.0600   327691.0300   258850.0300   300573.0300   395588.0700   352063.4900   272953.0300   321346.0600        2.5600        2.2800
    9299.26916    10254.4200        7.6590   169690.0000   147617.0000   116485.0000   140147.0000   366624.9340   330487.9670   261244.9670   303526.9670   399258.9230   355738.3610   275536.9670   324731.9340        2.3840        2.2920
    9302.76909    10316.9250        6.9537   170550.0000   148975.0000   117788.0000   141037.0000   369497.7975   333125.8987   262937.8987   304983.8987   402674.7637   358663.2213   277646.8987   326290.7975        2.1100        2.3050
    9306.29279    10350.5450        7.3027   171465.0000   148954.0000   118130.0000   142022.0000   371105.6715   333531.8358   263761.8358   307150.8358   404077.6167   359373.0922   278139.8358   328587.6715        2.9340        2.3170
    9309.82877    10399.0500        7.5975   171982.0000   150161.0000   118276.0000   141735.0000   372906.5350   336091.7675   265535.7675   306885.7675   406101.4575   361680.9525   280243.7675   328335.5350        2.6600        2.3300
    9313.39429    10445.6700        7.9465   172135.0000   150711.0000   119180.0000   142144.0000   374396.4090   338058.7045   266997.7045   308069.7045   407736.3105   363864.8235   281738.7045   329316.4090        2.4840        2.3420
    9316.97211    10490.1750        8.2413   173239.0000   151209.0000   119237.0000   142634.0000   376113.2725   338939.6362   267842.6362   309789.6362   409423.1512   364605.6838   282657.6362   331240.2725        3.2100        2.3550
    9320.56799    10538.7950        7.5902   174653.0000   151610.0000   119895.0000   143228.0000   378668.1465   340511.5733   269664.5733   311458.5733   412231.0042   366361.5548   284452.5733   332893.1465        3.0340        2.3670
    9324.18770    10588.3000        6.8850   174749.0000   151988.0000   120289.0000   145051.0000   379882.0100   342450.5050   270036.5050   313834.5050   413698.8450   368078.4150   284703.5050   335820.0100        2.7600        2.3800
    9327.81974    10632.9200        7.2340   175447.0000   153350.0000   120233.0000   144846.0000   381115.8840   343511.4420   270648.4420   314993.4420   414737.6980   369426.2860   285368.4420   336648.8840        3.5840        2.3920
    9331.47563    10674.4250        7.5288   175710.0000   153830.0000   120830.0000   145483.0000   382340.7475   345073.3738   272461.3738   316584.3738   416409.5388   371286.1462   287422.3738   338357.7475        3.3100        2.4050
    9335.14963    10718.0450        6.8778   177052.0000   154287.0000   121978.0000   146454.0000   384642.6215   346862.3108   273722.3108   317577.3108   418606.3918   373175.0172   288564.3108   339448.6215        3.1340        2.4170
    9338.84175    10776.5500        7.1725   178596.0000   155722.0000   122115.0000   146975.0000   386952.4850   349376.2425   274702.2425   319061.2425   420863.2325   375969.8775   289836.2425   341016.4850        2.8600        2.4300
    9342.55777    10831.1700        7.5215   178523.0000   155780.0000   122779.0000   148149.0000   389461.3590   351357.1795   276482.1795   320918.1795   423816.0855   377991.7485   291735.1795   343068.3590        3.6840        2.4420
    9346.28616    10890.6750        6.8162   179695.0000   157446.0000   123570.0000   148571.0000   391213.2225   353445.1113   278208.1113   323112.1113   425888.9263   380447.6088   293485.1113   345314.2225        3.4100        2.4550
    9350.03847    10935.2950        7.1652   180780.0000   157781.0000   124214.0000   149218.0000   391919.0965   354301.0482   279473.0482   324454.0482   426850.7793   381137.4797   294713.0482   346975.0965        3.2340        2.4670
    9353.80895    10985.8000        7.4600   181028.0000   158987.0000   124724.0000   149806.0000   393938.9600   356690.9800   280583.9800   324944.9800   429110.6200   383803.3400   295808.9800   347745.9600        3.9600        2.4800
    9357.59760    11029.4200        7.8090   182226.0000   159633.0000   125055.0000   149415.0000   396452.8340   358173.9170   282049.9170   326418.9170   431549.4730   385094.2110   297454.9170   348782.8340        2.7840        2.4920
    9361.40445    11076.9250        8.1038   182219.0000   158769.0000   125505.0000   151215.0000   397499.6975   358950.8488   282717.8488   328414.8488   432577.3137   385862.0712   298194.8488   351106.6975        2.5100        2.5050
    9365.22950    11130.5450        7.4528   183462.0000   160134.0000   126838.0000   152312.0000   400198.5715   360071.7857   284878.7857   330205.7857   435542.1667   387265.9423   300444.7857   352679.5715        3.3340        2.5170
    9369.07275    11178.0500        8.7475   185137.0000   161956.0000   127419.0000   152467.0000   401802.4350   363651.7175   286079.7175   330834.7175   437475.0075   391219.8025   301840.7175   353468.4350        3.0600        2.5300
    9372.94001    11224.6700        8.0965   186279.0000   161988.0000   128068.0000   152943.0000   404987.3090   364457.6545   287823.6545   331918.6545   440756.8605   392101.6735   303554.6545   354550.3090        2.8840        2.5420
    9376.82550    11291.1750        8.3912   186692.0000   162820.0000   128126.0000   154080.0000   406334.1725   366403.5862   289182.5862   334415.5862   442176.7012   394459.5338   304769.5862   357640.1725        2.6100        2.5550
    9380.72346    11332.7950        7.7403   187764.0000   164338.0000   129152.0000   154461.0000   408202.0465   368742.5233   290807.5233   336146.5233   444149.5542   396523.4047   306727.5233   359316.0465        2.4340        2.5670
    9384.64546    11357.3000        8.0350   187962.0000   164214.0000   129325.0000   154655.0000   408896.9100   369800.4550   291051.4550   337274.4550   444999.3950   397636.2650   306706.4550   360350.9100        3.1600        2.5800
    9388.59151    11343.9200        7.3840   187927.0000   164202.0000   130056.0000   155060.0000   409476.7840   368816.3920   291915.3920   337240.3920   445612.2480   396386.1360   307653.3920   360391.7840        2.9840        2.5920
    9392.55007    11400.4250        8.6788   188599.0000   164683.0000   129860.0000   155566.0000   411461.6475   370249.3237   293425.3237   338679.3237   447653.0887   397988.9963   309496.3237   361802.6475        2.7100        2.6050
    9396.52692    11541.0450        7.0277   191765.0000   167441.0000   130602.0000   157700.0000   417246.5215   376213.2608   295209.2608   342366.2608   454266.9417   404524.8673   311131.2608   366033.5215        3.5340        2.6170
    9400.52786    11583.5500        8.3225   192697.0000   167639.0000   132260.0000   158287.0000   418545.3850   377625.1925   297498.1925   343976.1925   455457.7825   406435.7275   313719.1925   367722.3850        3.2600        2.6300
    9404.54133    11614.1700        8.6715   192457.0000   167592.0000   131864.0000   159480.0000   419139.2590   378281.1295   297112.1295   346004.1295   456339.6355   406954.5985   313499.1295   369953.2590        3.0840        2.6420
    9408.57893    11671.6750        7.9663   193945.0000   168671.0000   132982.0000   159530.0000   421998.1225   379744.0613   299183.0613   347090.0613   459145.4763   408826.4587   315656.0613   370845.1225        3.8100        2.6550
    9412.63486    11645.2950        8.3153   193139.0000   168933.0000   132715.0000   158932.0000   420998.9965   379815.9983   299245.9983   346873.9983   457362.3293   408276.3297   315627.9983   370295.9965        3.6340        2.6670
    9416.70916    11777.8000        8.6100   194656.0000   170393.0000   133794.0000   160929.0000   425122.8600   383234.9300   302159.9300   349641.9300   462872.1700   412221.1900   318763.9300   373503.8600        3.3600        2.6800
    9420.80182    11738.4200        7.9590   195452.0000   170510.0000   134109.0000   161299.0000   425604.7340   383927.8670   302097.8670   350279.8670   462705.0230   412723.0610   318319.8670   374285.7340        4.1840        2.6920
    9424.91286    11888.9250        8.2537   197478.0000   171903.0000   135310.0000   161993.0000   430068.5975   387280.7988   305407.7988   353430.7988   468214.8638   416407.9213   322147.7988   377622.5975        3.9100        2.7050
    9429.04229    11927.5450        8.6027   197984.0000   172674.0000   136402.0000   162784.0000   431938.4715   388442.7357   307169.7357   354889.7357   470042.7168   417633.7922   323735.7357   379204.4715        3.7340        2.7170
    9433.19592    11984.0500        8.8975   198640.0000   174073.0000   135939.0000   164360.0000   433149.3350   391943.6675   308389.6675   357366.6675   471518.5575   421658.6525   325142.6675   381948.3350        3.4600        2.7300
    9437.36218    12022.6700        8.2465   200340.0000   173815.0000   137082.0000   164092.0000   436215.2090   392078.6045   308442.6045   357614.6045   474510.4105   421845.5235   325541.6045   381748.2090        4.2840        2.7420
    9441.55266    12072.1750        8.5413   200977.0000   174815.0000   137848.0000   164817.0000   437318.0725   393970.5363   310826.5363   359420.5363   475637.2512   423718.3837   328007.5363   384120.0725        4.0100        2.7550
    9445.76158    12109.7950        8.8903   201831.0000   175349.0000   137735.0000   165818.0000   438207.9465   395762.4732   311138.4732   360936.4732   476863.1042   425697.2548   327969.4732   385930.9465        3.8340        2.7670
    9449.98895    12167.3000        8.1850   202521.0000   176522.0000   139524.0000   166810.0000   440866.8100   398067.4050   314545.4050   363343.4050   479710.9450   428082.1150   331616.4050   388155.8100        3.5600        2.7800
    9454.23479    12201.9200        8.5340   202954.0000   176853.0000   139480.0000   166788.0000   442307.6840   398725.3420   314262.3420   363761.3420   481140.7980   428885.9860   331437.3420   388469.6840        3.3840        2.7920
    9458.49911    12248.4250        8.8287   204474.0000   177638.0000   139593.0000   167455.0000   444051.5475   401603.2737   315570.2737   365047.2737   483218.6387   431867.8463   332743.2737   389842.5475        3.1100        2.8050
    9462.78192    12281.0450        9.1778   204040.0000   178382.0000   140305.0000   168826.0000   444970.4215   402654.2108   316284.2108   366985.2108   484085.4917   433130.7172   333365.2108   392289.4215        2.9340        2.8170
    9467.08324    12292.5500        9.4725   205374.0000   178139.0000   140310.0000   168538.0000   446337.2850   403084.1425   317022.1425   366796.1425   485387.3325   433676.5775   334295.1425   391539.2850        3.6600        2.8300
    9471.40887    12383.1700        8.8215   206023.0000   179283.0000   141478.0000   169413.0000   449616.1590   406028.0795   319467.0795   369544.0795   488777.1855   436828.4485   337166.0795   394772.1590        3.4840        2.8420
    9475.74723    12430.6750        9.1163   207348.0000   181275.0000   141282.0000   170145.0000   452872.0225   407518.0112   320198.0112   371416.0112   492296.0262   438338.3088   337431.0112   396812.0225        4.2100        2.8550
    9480.10994    12457.2950        9.4652   207534.0000   180825.0000   142577.0000   170917.0000   451923.8965   408333.9483   322270.9483   372166.9483   491546.8792   438970.1798   340081.9483   397648.8965        3.0340        2.8670
    9484.48538    12529.8000        8.7600   208909.0000   181869.0000   143316.0000   171563.0000   455370.7600   411417.8800   323908.8800   374012.8800   495202.7200   442300.0400   341561.8800   399585.7600        3.7600        2.8800
    9488.88521    12566.4200        9.1090   209408.0000   182006.0000   143122.0000   172110.0000   456605.6340   411127.8170   323794.8170   375827.8170   496931.5730   442025.9110   341322.8170   401334.6340        3.5840        2.8920
    9493.30361    12617.9250        9.4038   210717.0000   183914.0000   143761.0000   173137.0000   458767.4975   415210.7488   325125.7488   376932.7488   499611.4138   446253.7712   342757.7488   402475.4975        3.3100        2.9050
    9497.73479    12649.5450        8.7528   210580.0000   183769.0000   144725.0000   173661.0000   460724.3715   415452.6858   327107.6858   378824.6858   500755.2668   446952.6422   344800.6858   404695.3715        3.1340        2.9170
    9502.19039    12703.0500        9.0475   211976.0000   185695.0000   145203.0000   174248.0000   462123.2350   418389.6175   328152.6175   379918.6175   502739.1075   449546.5025   346185.6175   405511.2350        3.8600        2.9300
    9506.66460    12585.6700        9.3965   210843.0000   183718.0000   143639.0000   173210.0000   458811.1090   414899.5545   325460.5545   377592.5545   498252.9605   445823.3735   342910.5545   403235.1090        3.6840        2.9420
    9511.15745    12626.1750        8.6912   211169.0000   183425.0000   143980.0000   172916.0000   461655.9725   415193.4863   327137.4863   378017.4863   501652.8013   445773.2338   344439.4863   403369.9725        3.4100        2.9550
    9515.67475    12844.7950        9.0402   214269.0000   186583.0000   146646.0000   175984.0000   468116.8465   422712.4232   332304.4232   384128.4232   509035.6543   454457.1047   350122.4232   410473.8465        4.2340        2.9670
    9520.20489    12888.3000        9.3350   215607.0000   187478.0000   147243.0000   176239.0000   471145.7100   424153.3550   333329.3550   385219.3550   512211.4950   455753.9650   351226.3550   411459.7100        3.9600        2.9800
    9524.75369    12943.9200        9.6840   216314.0000   188401.0000   148360.0000   177176.0000   472202.5840   427586.2920   335984.2920   388015.2920   513551.3480   459898.8360   354156.2920   414562.5840        3.7840        2.9920
    9529.32117    12969.4250        8.9788   216776.0000   189982.0000   147800.0000   178204.0000   472779.4475   427869.2238   334116.2238   389047.2238   514119.1887   460072.6962   352388.2238   415680.4475        4.5100        3.0050
    9533.91317    13048.0450        9.3278   217791.0000   189871.0000   149199.0000   178434.0000   475957.3215   430379.1607   338434.1607   390481.1607   517493.0417   462791.5673   356865.1607   416876.3215        4.3340        3.0170
    9538.51805    13088.5500       10.6225   219672.0000   190298.0000   148961.0000   179751.0000   478912.1850   432161.0925   338439.0925   392449.0925   520743.8825   464623.4275   356977.0925   419063.1850        4.0600        3.0300
    9543.14747    13146.1700        9.9715   220018.0000   190788.0000   150009.0000   180497.0000   481518.0590   433221.0295   340521.0295   394304.0295   523627.7355   466098.2985   358930.0295   421041.0590        3.8840        3.0420
    9547.78979    13197.6750       10.2662   220643.0000   192370.0000   150634.0000   180152.0000   481961.9225   436440.9612   341730.9612   394584.9612   524305.5763   469497.1588   360313.9612   421244.9225        3.6100        3.0550
    9552.45669    13232.2950        9.6153   220586.0000   192841.0000   150853.0000   181667.0000   482556.7965   436890.8983   342583.8983   397311.8983   524369.4293   469646.0297   361103.8983   424171.7965        4.4340        3.0670
    9557.14234    13282.8000        9.9100   222416.0000   193346.0000   152106.0000   182713.0000   485263.6600   438895.8300   345202.8300   398742.8300   527637.2700   471863.8900   363763.8300   425729.6600        4.1600        3.0800
    9561.84093    13328.4200       10.2590   222676.0000   194422.0000   151485.0000   182181.0000   486937.5340   440093.7670   345083.7670   398315.7670   529434.1230   473294.7610   363842.7670   425654.5340        3.9840        3.0920
    9566.56413    13382.9250       10.5538   225143.0000   195058.0000   152852.0000   184248.0000   490655.3975   442622.6987   347518.6987   401639.6987   533422.9637   475946.6213   366199.6987   428934.3975        4.7100        3.1050
    9571.30613    13429.5450        9.9027   224881.0000   197171.0000   154285.0000   184373.0000   492083.2715   445218.6358   349248.6358   402777.6358   534996.8167   479040.4923   368241.6358   430279.2715        3.5340        3.1170
    9576.06694    13461.0500       10.1975   226063.0000   196335.0000   153919.0000   185210.0000   494113.1350   445111.5675   349634.5675   405116.5675   537418.6575   478213.3525   368393.5675   432503.1350        4.2600        3.1300
    9580.84656    13270.6700        9.5465   223443.0000   194559.0000   152968.0000   182428.0000   488250.0090   440503.5045   345552.5045   400619.5045   530079.5105   473190.2235   363833.5045   427227.0090        4.0840        3.1420
    9585.64502    13549.1750       10.8413   227366.0000   198703.0000   155115.0000   186672.0000   496747.8725   449667.4363   352655.4363   407990.4363   540309.3512   483470.0837   371944.4363   435266.8725        4.8100        3.1550
    9590.46232    13582.7950       10.1903   228188.0000   199142.0000   155458.0000   187176.0000   499065.7465   450588.3733   354287.3733   409048.3733   543009.2042   484337.9547   373548.3733   436709.7465        4.6340        3.1670
    9595.29849    13620.3000       10.4850   229286.0000   199550.0000   155818.0000   186800.0000   500590.6100   452333.3050   354100.3050   408871.3050   544536.0450   486316.8150   373388.3050   436445.6100        4.3600        3.1800
    9600.15352    13643.9200        9.8340   229704.0000   200572.0000   156991.0000   187497.0000   501019.4840   454462.2420   356340.2420   410343.2420   544567.8980   488209.6860   375667.2420   438245.4840        4.1840        3.1920
    9605.02744    13690.4250       10.1287   230011.0000   199982.0000   156776.0000   188780.0000   503751.3475   453617.1738   356579.1738   413394.1738   548077.7388   487620.5463   375731.1738   441150.3475        4.9100        3.2050
    9609.92025    13737.0450        9.4777   231562.0000   201611.0000   157275.0000   189820.0000   505281.2215   456985.1107   358333.1107   413075.1107   549474.5918   491307.4172   377477.1107   440888.2215        4.7340        3.2170
    9614.83198    13751.5500       10.7725   231011.0000   200890.0000   157410.0000   189794.0000   506476.0850   457665.0425   358147.0425   414371.0425   550767.4325   491515.2775   377618.0425   442083.0850        4.4600        3.2300
    9619.76262    13786.1700       10.1215   232377.0000   201850.0000   157970.0000   190237.0000   508197.9590   459395.9795   359925.9795   416172.9795   552161.2855   493629.1485   379312.9795   444322.9590        4.2840        3.2420
    9624.71221    13841.6750       10.4163   233460.0000   203356.0000   159367.0000   190775.0000   511064.8225   461596.9113   361512.9113   417916.9113   555409.1262   496303.0087   381067.9113   445997.8225        4.0100        3.2550
